{
  "resourceType" : "Bundle",
  "id" : "HIMS-OPD-Prescription-Bundle",
  "type" : "transaction",
  "entry" : [{
    "fullUrl" : "MedicationRequest/PrescriptionsExample",
    "resource" : {
      "resourceType" : "MedicationRequest",
      "id" : "PrescriptionsExample",
      "meta" : {
        "profile" : ["http://openhie.org/fhir/sri-lanka/StructureDefinition/medication-request"]
      },
      "text" : {
        "status" : "generated",
        "div" : "<div xmlns=\"http://www.w3.org/1999/xhtml\"><p><b>Generated Narrative: MedicationRequest</b><a name=\"PrescriptionsExample\"> </a></p><div style=\"display: inline-block; background-color: #d9e0e7; padding: 6px; margin: 4px; border: 1px solid #8da1b4; border-radius: 5px; line-height: 60%\"><p style=\"margin-bottom: 0px\">Resource MedicationRequest &quot;PrescriptionsExample&quot; </p><p style=\"margin-bottom: 0px\">Profile: <a href=\"StructureDefinition-medication-request.html\">Prescription Request</a></p></div><p><b>identifier</b>: Prescription identifier:\u00a0prescription-12345</p><p><b>status</b>: completed</p><p><b>intent</b>: order</p><p><b>medication</b>: Medication <span style=\"background: LightGoldenRodYellow; margin: 4px; border: 1px solid khaki\"> (<a href=\"CodeSystem-cs-medication-name.html\">Medication Names</a>#Vitamin-A-&amp;-D)</span></p><p><b>subject</b>: <a href=\"#Patient_HHIMSPatientExample\">See above (Patient/HHIMSPatientExample)</a></p><p><b>encounter</b>: <a href=\"#Encounter_TargetFacilityEncounterExample\">See above (Encounter/TargetFacilityEncounterExample)</a></p><p><b>authoredOn</b>: 2023-10-11 17:21:33-0800</p><p><b>requester</b>: <a href=\"#Practitioner_GeneralPractitionerExample\">See above (Practitioner/GeneralPractitionerExample)</a></p><p><b>performer</b>: <a href=\"#Practitioner_GeneralPractitionerExample\">See above (Practitioner/GeneralPractitionerExample)</a></p><p><b>recorder</b>: <a href=\"#Practitioner_GeneralPractitionerExample\">See above (Practitioner/GeneralPractitionerExample)</a></p><p><b>note</b>: Additional information regarding the patient's medication prescription (By Organization/OrganizationExample @Oct 12, 2023, 1:21:33\u202fAM)</p><blockquote><p><b>dosageInstruction</b></p><p><b>timing</b>: Code: BID, Count 2 times, Duration 2days, 2 per 3 days</p><blockquote><p><b>doseAndRate</b></p></blockquote></blockquote><h3>DispenseRequests</h3><table class=\"grid\"><tr><td style=\"display: none\">-</td><td><b>Quantity</b></td></tr><tr><td style=\"display: none\">*</td><td>5</td></tr></table></div>"
      },
      "identifier" : [{
        "type" : {
          "coding" : [{
            "system" : "http://terminology.hl7.org/CodeSystem/v2-0203",
            "code" : "FILL",
            "display" : "Filler Identifier"
          }],
          "text" : "Prescription identifier"
        },
        "system" : "http://openhie.org/fhir/sri-lanka/identifier/prescription",
        "value" : "prescription-12345"
      }],
      "status" : "completed",
      "intent" : "order",
      "medicationCodeableConcept" : {
        "coding" : [{
          "system" : "http://openhie.org/fhir/sri-lanka/CodeSystem/cs-medication-name",
          "code" : "Vitamin-A-&-D"
        }],
        "text" : "Medication"
      },
      "subject" : {
        "reference" : "Patient/HHIMSPatientExample"
      },
      "encounter" : {
        "reference" : "Encounter/TargetFacilityEncounterExample"
      },
      "authoredOn" : "2023-10-11T17:21:33-08:00",
      "requester" : {
        "reference" : "Practitioner/GeneralPractitionerExample"
      },
      "performer" : {
        "reference" : "Practitioner/GeneralPractitionerExample"
      },
      "recorder" : {
        "reference" : "Practitioner/GeneralPractitionerExample"
      },
      "note" : [{
        "authorReference" : {
          "reference" : "Organization/OrganizationExample"
        },
        "time" : "2023-10-11T17:21:33-08:00",
        "text" : "Additional information regarding the patient's medication prescription"
      }],
      "dosageInstruction" : [{
        "timing" : {
          "repeat" : {
            "count" : 2,
            "duration" : 2,
            "durationUnit" : "d",
            "frequency" : 2,
            "period" : 3,
            "periodUnit" : "d"
          },
          "code" : {
            "coding" : [{
              "system" : "http://terminology.hl7.org/CodeSystem/v3-GTSAbbreviation",
              "code" : "BID"
            }]
          }
        },
        "doseAndRate" : [{
          "doseQuantity" : {
            "value" : 3
          }
        }]
      }],
      "dispenseRequest" : {
        "quantity" : {
          "value" : 5
        }
      }
    },
    "request" : {
      "method" : "PUT",
      "url" : "MedicationRequest/PrescriptionsExample"
    }
  },
  {
    "fullUrl" : "Encounter/TargetFacilityEncounterExample",
    "resource" : {
      "resourceType" : "Encounter",
      "id" : "TargetFacilityEncounterExample",
      "meta" : {
        "profile" : ["http://openhie.org/fhir/sri-lanka/StructureDefinition/target-facility-encounter"]
      },
      "text" : {
        "status" : "generated",
        "div" : "<div xmlns=\"http://www.w3.org/1999/xhtml\"><p><b>Generated Narrative: Encounter</b><a name=\"TargetFacilityEncounterExample\"> </a></p><div style=\"display: inline-block; background-color: #d9e0e7; padding: 6px; margin: 4px; border: 1px solid #8da1b4; border-radius: 5px; line-height: 60%\"><p style=\"margin-bottom: 0px\">Resource Encounter &quot;TargetFacilityEncounterExample&quot; </p><p style=\"margin-bottom: 0px\">Profile: <a href=\"StructureDefinition-target-facility-encounter.html\">Target Facility Encounter</a></p></div><p><b>status</b>: finished</p><p><b>class</b>: ambulatory (Details: http://terminology.hl7.org/CodeSystem/v3-ActCode code AMB = 'ambulatory', stated as 'null')</p><p><b>subject</b>: <a href=\"Patient-HIMSPatientExample.html\">Patient/HIMSPatientExample</a> &quot; SMITH&quot;</p><h3>Participants</h3><table class=\"grid\"><tr><td style=\"display: none\">-</td><td><b>Individual</b></td></tr><tr><td style=\"display: none\">*</td><td><a href=\"#Practitioner_GeneralPractitionerExample\">See above (Practitioner/GeneralPractitionerExample)</a></td></tr></table><p><b>period</b>: 2022-12-01 --&gt; 2023-01-20</p><p><b>reasonCode</b>: 140004 <span style=\"background: LightGoldenRodYellow; margin: 4px; border: 1px solid khaki\"> (<a href=\"https://browser.ihtsdotools.org/\">SNOMED CT</a>#140004)</span></p><h3>Locations</h3><table class=\"grid\"><tr><td style=\"display: none\">-</td><td><b>Location</b></td></tr><tr><td style=\"display: none\">*</td><td><a href=\"Location-ProvidersLocationExample.html\">Location/ProvidersLocationExample</a> &quot;Name for the location&quot;</td></tr></table></div>"
      },
      "status" : "finished",
      "class" : {
        "system" : "http://terminology.hl7.org/CodeSystem/v3-ActCode",
        "code" : "AMB"
      },
      "subject" : {
        "reference" : "Patient/HIMSPatientExample"
      },
      "participant" : [{
        "individual" : {
          "reference" : "Practitioner/GeneralPractitionerExample"
        }
      }],
      "period" : {
        "start" : "2022-12-01",
        "end" : "2023-01-20"
      },
      "reasonCode" : [{
        "coding" : [{
          "system" : "http://snomed.info/sct",
          "code" : "140004"
        }]
      }],
      "location" : [{
        "location" : {
          "reference" : "Location/ProvidersLocationExample"
        }
      }]
    },
    "request" : {
      "method" : "PUT",
      "url" : "Encounter/TargetFacilityEncounterExample"
    }
  },
  {
    "fullUrl" : "Patient/HHIMSPatientExample",
    "resource" : {
      "resourceType" : "Patient",
      "id" : "HHIMSPatientExample",
      "meta" : {
        "profile" : ["http://openhie.org/fhir/sri-lanka/StructureDefinition/hhims-patient"]
      },
      "text" : {
        "status" : "generated",
        "div" : "<div xmlns=\"http://www.w3.org/1999/xhtml\"><p><b>Generated Narrative: Patient</b><a name=\"HHIMSPatientExample\"> </a></p><div style=\"display: inline-block; background-color: #d9e0e7; padding: 6px; margin: 4px; border: 1px solid #8da1b4; border-radius: 5px; line-height: 60%\"><p style=\"margin-bottom: 0px\">Resource Patient &quot;HHIMSPatientExample&quot; </p><p style=\"margin-bottom: 0px\">Profile: <a href=\"StructureDefinition-hhims-patient.html\">HHIMS Patient</a></p></div><p><b>identifier</b>: Personal Health Number:\u00a0personal health number, National identity number:\u00a0A patient may have multiple national identity numbers.</p><p><b>name</b>: Mr. Mike John Smith (OFFICIAL)</p><p><b>telecom</b>: <a href=\"tel:+27829999999\">+27829999999</a>, <a href=\"mailto:someone@something.com\">someone@something.com</a>, <a href=\"mailto:someone2@something.com\">someone2@something.com</a></p><p><b>gender</b>: male</p><p><b>birthDate</b>: 1983-05-22</p><p><b>address</b>: 177 Nawala Road Nugegoda Colombo 32350 Sri Lanka </p></div>"
      },
      "identifier" : [{
        "type" : {
          "coding" : [{
            "system" : "http://openhie.org/fhir/sri-lanka/CodeSystem/cs-identifier-types",
            "code" : "PHN"
          }],
          "text" : "Personal Health Number"
        },
        "system" : "http://openhie.org/fhir/sri-lanka/identifier/phn",
        "value" : "personal health number"
      },
      {
        "extension" : [{
          "url" : "http://openhie.org/fhir/sri-lanka/StructureDefinition/multiple-values-for-patient-identifier",
          "valueString" : "National identity number-1"
        },
        {
          "url" : "http://openhie.org/fhir/sri-lanka/StructureDefinition/multiple-values-for-patient-identifier",
          "valueString" : "National identity number-2"
        }],
        "type" : {
          "coding" : [{
            "system" : "http://terminology.hl7.org/CodeSystem/v2-0203",
            "code" : "NNLKA"
          }],
          "text" : "National identity number"
        },
        "system" : "http://openhie.org/fhir/sri-lanka/identifier/nic",
        "value" : "A patient may have multiple national identity numbers."
      }],
      "name" : [{
        "use" : "official",
        "family" : "Smith",
        "given" : ["Mr.",
        "Mike",
        "John"]
      }],
      "telecom" : [{
        "system" : "phone",
        "value" : "+27829999999"
      },
      {
        "system" : "email",
        "value" : "someone@something.com"
      },
      {
        "system" : "email",
        "value" : "someone2@something.com"
      }],
      "gender" : "male",
      "birthDate" : "1983-05-22",
      "address" : [{
        "type" : "postal",
        "line" : ["177",
        "Nawala Road"],
        "city" : "Nugegoda",
        "district" : "Ampara",
        "state" : "Colombo",
        "postalCode" : "32350",
        "country" : "Sri Lanka"
      }]
    },
    "request" : {
      "method" : "PUT",
      "url" : "Patient/HHIMSPatientExample"
    }
  },
  {
    "fullUrl" : "Practitioner/GeneralPractitionerExample",
    "resource" : {
      "resourceType" : "Practitioner",
      "id" : "GeneralPractitionerExample",
      "meta" : {
        "profile" : ["http://openhie.org/fhir/sri-lanka/StructureDefinition/practitioner"]
      },
      "text" : {
        "status" : "generated",
        "div" : "<div xmlns=\"http://www.w3.org/1999/xhtml\"><p><b>Generated Narrative: Practitioner</b><a name=\"GeneralPractitionerExample\"> </a></p><div style=\"display: inline-block; background-color: #d9e0e7; padding: 6px; margin: 4px; border: 1px solid #8da1b4; border-radius: 5px; line-height: 60%\"><p style=\"margin-bottom: 0px\">Resource Practitioner &quot;GeneralPractitionerExample&quot; </p><p style=\"margin-bottom: 0px\">Profile: <a href=\"StructureDefinition-practitioner.html\">Practitioner</a></p></div><p><b>name</b>: Tom Junes Smith </p><p><b>telecom</b>: ph: 27537652509(WORK), <a href=\"mailto:someone@something.org\">someone@something.org</a></p></div>"
      },
      "name" : [{
        "family" : "Smith",
        "given" : ["Tom",
        "Junes"],
        "prefix" : ["Dr"]
      }],
      "telecom" : [{
        "system" : "phone",
        "value" : "27537652509",
        "use" : "work"
      },
      {
        "system" : "email",
        "value" : "someone@something.org",
        "use" : "home"
      }]
    },
    "request" : {
      "method" : "PUT",
      "url" : "Practitioner/GeneralPractitionerExample"
    }
  }]
}