{
  "resourceType" : "Bundle",
  "id" : "HIMS-OPD-Encounter-2-Bundle",
  "type" : "transaction",
  "entry" : [{
    "fullUrl" : "Encounter/TargetFacilityEncounterExample",
    "resource" : {
      "resourceType" : "Encounter",
      "id" : "TargetFacilityEncounterExample",
      "meta" : {
        "profile" : ["http://openhie.org/fhir/sri-lanka/StructureDefinition/target-facility-encounter"]
      },
      "text" : {
        "status" : "generated",
        "div" : "<div xmlns=\"http://www.w3.org/1999/xhtml\"><p><b>Generated Narrative: Encounter</b><a name=\"TargetFacilityEncounterExample\"> </a></p><div style=\"display: inline-block; background-color: #d9e0e7; padding: 6px; margin: 4px; border: 1px solid #8da1b4; border-radius: 5px; line-height: 60%\"><p style=\"margin-bottom: 0px\">Resource Encounter &quot;TargetFacilityEncounterExample&quot; </p><p style=\"margin-bottom: 0px\">Profile: <a href=\"StructureDefinition-target-facility-encounter.html\">Target Facility Encounter</a></p></div><p><b>status</b>: finished</p><p><b>class</b>: ambulatory (Details: http://terminology.hl7.org/CodeSystem/v3-ActCode code AMB = 'ambulatory', stated as 'null')</p><p><b>subject</b>: <a href=\"Patient-HIMSPatientExample.html\">Patient/HIMSPatientExample</a> &quot; SMITH&quot;</p><h3>Participants</h3><table class=\"grid\"><tr><td style=\"display: none\">-</td><td><b>Individual</b></td></tr><tr><td style=\"display: none\">*</td><td><a href=\"#Practitioner_GeneralPractitionerExample\">See above (Practitioner/GeneralPractitionerExample)</a></td></tr></table><p><b>period</b>: 2022-12-01 --&gt; 2023-01-20</p><p><b>reasonCode</b>: 140004 <span style=\"background: LightGoldenRodYellow; margin: 4px; border: 1px solid khaki\"> (<a href=\"https://browser.ihtsdotools.org/\">SNOMED CT</a>#140004)</span></p><h3>Locations</h3><table class=\"grid\"><tr><td style=\"display: none\">-</td><td><b>Location</b></td></tr><tr><td style=\"display: none\">*</td><td><a href=\"#Location_ProvidersLocationExample\">See above (Location/ProvidersLocationExample)</a></td></tr></table></div>"
      },
      "status" : "finished",
      "class" : {
        "system" : "http://terminology.hl7.org/CodeSystem/v3-ActCode",
        "code" : "AMB"
      },
      "subject" : {
        "reference" : "Patient/HIMSPatientExample"
      },
      "participant" : [{
        "individual" : {
          "reference" : "Practitioner/GeneralPractitionerExample"
        }
      }],
      "period" : {
        "start" : "2022-12-01",
        "end" : "2023-01-20"
      },
      "reasonCode" : [{
        "coding" : [{
          "system" : "http://snomed.info/sct",
          "code" : "140004"
        }]
      }],
      "location" : [{
        "location" : {
          "reference" : "Location/ProvidersLocationExample"
        }
      }]
    },
    "request" : {
      "method" : "PUT",
      "url" : "Encounter/TargetFacilityEncounterExample"
    }
  },
  {
    "fullUrl" : "Patient/HHIMSPatientExample",
    "resource" : {
      "resourceType" : "Patient",
      "id" : "HHIMSPatientExample",
      "meta" : {
        "profile" : ["http://openhie.org/fhir/sri-lanka/StructureDefinition/hhims-patient"]
      },
      "text" : {
        "status" : "generated",
        "div" : "<div xmlns=\"http://www.w3.org/1999/xhtml\"><p><b>Generated Narrative: Patient</b><a name=\"HHIMSPatientExample\"> </a></p><div style=\"display: inline-block; background-color: #d9e0e7; padding: 6px; margin: 4px; border: 1px solid #8da1b4; border-radius: 5px; line-height: 60%\"><p style=\"margin-bottom: 0px\">Resource Patient &quot;HHIMSPatientExample&quot; </p><p style=\"margin-bottom: 0px\">Profile: <a href=\"StructureDefinition-hhims-patient.html\">HHIMS Patient</a></p></div><p><b>identifier</b>: Personal Health Number:\u00a0personal health number, National identity number:\u00a0A patient may have multiple national identity numbers.</p><p><b>name</b>: Mr. Mike John Smith (OFFICIAL)</p><p><b>telecom</b>: <a href=\"tel:+27829999999\">+27829999999</a>, <a href=\"mailto:someone@something.com\">someone@something.com</a>, <a href=\"mailto:someone2@something.com\">someone2@something.com</a></p><p><b>gender</b>: male</p><p><b>birthDate</b>: 1983-05-22</p><p><b>address</b>: 177 Nawala Road Nugegoda Colombo 32350 Sri Lanka </p></div>"
      },
      "identifier" : [{
        "type" : {
          "coding" : [{
            "system" : "http://openhie.org/fhir/sri-lanka/CodeSystem/cs-identifier-types",
            "code" : "PHN"
          }],
          "text" : "Personal Health Number"
        },
        "system" : "http://openhie.org/fhir/sri-lanka/identifier/phn",
        "value" : "personal health number"
      },
      {
        "extension" : [{
          "url" : "http://openhie.org/fhir/sri-lanka/StructureDefinition/multiple-values-for-patient-identifier",
          "valueString" : "National identity number-1"
        },
        {
          "url" : "http://openhie.org/fhir/sri-lanka/StructureDefinition/multiple-values-for-patient-identifier",
          "valueString" : "National identity number-2"
        }],
        "type" : {
          "coding" : [{
            "system" : "http://terminology.hl7.org/CodeSystem/v2-0203",
            "code" : "NNLKA"
          }],
          "text" : "National identity number"
        },
        "system" : "http://openhie.org/fhir/sri-lanka/identifier/nic",
        "value" : "A patient may have multiple national identity numbers."
      }],
      "name" : [{
        "use" : "official",
        "family" : "Smith",
        "given" : ["Mr.",
        "Mike",
        "John"]
      }],
      "telecom" : [{
        "system" : "phone",
        "value" : "+27829999999"
      },
      {
        "system" : "email",
        "value" : "someone@something.com"
      },
      {
        "system" : "email",
        "value" : "someone2@something.com"
      }],
      "gender" : "male",
      "birthDate" : "1983-05-22",
      "address" : [{
        "type" : "postal",
        "line" : ["177",
        "Nawala Road"],
        "city" : "Nugegoda",
        "district" : "Ampara",
        "state" : "Colombo",
        "postalCode" : "32350",
        "country" : "Sri Lanka"
      }]
    },
    "request" : {
      "method" : "PUT",
      "url" : "Patient/HHIMSPatientExample"
    }
  },
  {
    "fullUrl" : "Location/ProvidersLocationExample",
    "resource" : {
      "resourceType" : "Location",
      "id" : "ProvidersLocationExample",
      "meta" : {
        "profile" : ["http://openhie.org/fhir/sri-lanka/StructureDefinition/providers-location"]
      },
      "text" : {
        "status" : "generated",
        "div" : "<div xmlns=\"http://www.w3.org/1999/xhtml\"><p><b>Generated Narrative: Location</b><a name=\"ProvidersLocationExample\"> </a></p><div style=\"display: inline-block; background-color: #d9e0e7; padding: 6px; margin: 4px; border: 1px solid #8da1b4; border-radius: 5px; line-height: 60%\"><p style=\"margin-bottom: 0px\">Resource Location &quot;ProvidersLocationExample&quot; </p><p style=\"margin-bottom: 0px\">Profile: <a href=\"StructureDefinition-providers-location.html\">Providers Location</a></p></div><p><b>identifier</b>: Provider location identifier:\u00a0A provider's location may be associated with multiple identifiers.</p><p><b>status</b>: active</p><p><b>name</b>: Name for the location</p><p><b>telecom</b>: <a href=\"tel:+27829999999\">+27829999999</a>, <a href=\"mailto:someone@something.com\">someone@something.com</a>, <a href=\"mailto:someone2@something.com\">someone2@something.com</a></p><p><b>address</b>: 177 Nawala Road Nugegoda Colombo 32350 Sri Lanka </p><p><b>managingOrganization</b>: <a href=\"Organization-OrganizationExample.html\">Organization/OrganizationExample</a> &quot;Some Health Facility&quot;</p></div>"
      },
      "identifier" : [{
        "extension" : [{
          "url" : "http://openhie.org/fhir/sri-lanka/StructureDefinition/multiple-values-for-patient-identifier",
          "valueString" : "Location-ID-1"
        },
        {
          "url" : "http://openhie.org/fhir/sri-lanka/StructureDefinition/multiple-values-for-patient-identifier",
          "valueString" : "Location-ID-2"
        }],
        "type" : {
          "coding" : [{
            "system" : "http://terminology.hl7.org/CodeSystem/v2-0203",
            "code" : "PIN"
          }],
          "text" : "Provider location identifier"
        },
        "system" : "http://openhie.org/fhir/sri-lanka/identifier/provider-location",
        "value" : "A provider's location may be associated with multiple identifiers."
      }],
      "status" : "active",
      "name" : "Name for the location",
      "telecom" : [{
        "system" : "phone",
        "value" : "+27829999999"
      },
      {
        "system" : "email",
        "value" : "someone@something.com"
      },
      {
        "system" : "email",
        "value" : "someone2@something.com"
      }],
      "address" : {
        "type" : "postal",
        "line" : ["177",
        "Nawala Road"],
        "city" : "Nugegoda",
        "district" : "Ampara",
        "state" : "Colombo",
        "postalCode" : "32350",
        "country" : "Sri Lanka"
      },
      "managingOrganization" : {
        "reference" : "Organization/OrganizationExample"
      }
    },
    "request" : {
      "method" : "PUT",
      "url" : "Location/ProvidersLocationExample"
    }
  },
  {
    "fullUrl" : "Practitioner/GeneralPractitionerExample",
    "resource" : {
      "resourceType" : "Practitioner",
      "id" : "GeneralPractitionerExample",
      "meta" : {
        "profile" : ["http://openhie.org/fhir/sri-lanka/StructureDefinition/practitioner"]
      },
      "text" : {
        "status" : "generated",
        "div" : "<div xmlns=\"http://www.w3.org/1999/xhtml\"><p><b>Generated Narrative: Practitioner</b><a name=\"GeneralPractitionerExample\"> </a></p><div style=\"display: inline-block; background-color: #d9e0e7; padding: 6px; margin: 4px; border: 1px solid #8da1b4; border-radius: 5px; line-height: 60%\"><p style=\"margin-bottom: 0px\">Resource Practitioner &quot;GeneralPractitionerExample&quot; </p><p style=\"margin-bottom: 0px\">Profile: <a href=\"StructureDefinition-practitioner.html\">Practitioner</a></p></div><p><b>name</b>: Tom Junes Smith </p><p><b>telecom</b>: ph: 27537652509(WORK), <a href=\"mailto:someone@something.org\">someone@something.org</a></p></div>"
      },
      "name" : [{
        "family" : "Smith",
        "given" : ["Tom",
        "Junes"],
        "prefix" : ["Dr"]
      }],
      "telecom" : [{
        "system" : "phone",
        "value" : "27537652509",
        "use" : "work"
      },
      {
        "system" : "email",
        "value" : "someone@something.org",
        "use" : "home"
      }]
    },
    "request" : {
      "method" : "PUT",
      "url" : "Practitioner/GeneralPractitionerExample"
    }
  },
  {
    "fullUrl" : "Communication/NotifiableDiseasesNotifiedExample",
    "resource" : {
      "resourceType" : "Communication",
      "id" : "NotifiableDiseasesNotifiedExample",
      "meta" : {
        "profile" : ["http://openhie.org/fhir/sri-lanka/StructureDefinition/notifiable-diseases-notified"]
      },
      "text" : {
        "status" : "generated",
        "div" : "<div xmlns=\"http://www.w3.org/1999/xhtml\"><p><b>Generated Narrative: Communication</b><a name=\"NotifiableDiseasesNotifiedExample\"> </a></p><div style=\"display: inline-block; background-color: #d9e0e7; padding: 6px; margin: 4px; border: 1px solid #8da1b4; border-radius: 5px; line-height: 60%\"><p style=\"margin-bottom: 0px\">Resource Communication &quot;NotifiableDiseasesNotifiedExample&quot; </p><p style=\"margin-bottom: 0px\">Profile: <a href=\"StructureDefinition-notifiable-diseases-notified.html\">Notifiable Diseases Notified</a></p></div><p><b>status</b>: completed</p><p><b>subject</b>: <a href=\"#Patient_HHIMSPatientExample\">See above (Patient/HHIMSPatientExample)</a></p><p><b>encounter</b>: <a href=\"#Encounter_TargetFacilityEncounterExample\">See above (Encounter/TargetFacilityEncounterExample)</a></p><p><b>sent</b>: 2023-10-06 13:28:17-0500</p></div>"
      },
      "status" : "completed",
      "subject" : {
        "reference" : "Patient/HHIMSPatientExample"
      },
      "encounter" : {
        "reference" : "Encounter/TargetFacilityEncounterExample"
      },
      "sent" : "2023-10-06T13:28:17-05:00"
    },
    "request" : {
      "method" : "PUT",
      "url" : "Communication/NotifiableDiseasesNotifiedExample"
    }
  },
  {
    "fullUrl" : "ServiceRequest/GeneralReferralServiceRequestExample",
    "resource" : {
      "resourceType" : "ServiceRequest",
      "id" : "GeneralReferralServiceRequestExample",
      "meta" : {
        "profile" : ["http://openhie.org/fhir/sri-lanka/StructureDefinition/general-referral-request"]
      },
      "text" : {
        "status" : "generated",
        "div" : "<div xmlns=\"http://www.w3.org/1999/xhtml\"><p><b>Generated Narrative: ServiceRequest</b><a name=\"GeneralReferralServiceRequestExample\"> </a></p><div style=\"display: inline-block; background-color: #d9e0e7; padding: 6px; margin: 4px; border: 1px solid #8da1b4; border-radius: 5px; line-height: 60%\"><p style=\"margin-bottom: 0px\">Resource ServiceRequest &quot;GeneralReferralServiceRequestExample&quot; </p><p style=\"margin-bottom: 0px\">Profile: <a href=\"StructureDefinition-general-referral-request.html\">General Referral Request</a></p></div><p><b>status</b>: completed</p><p><b>intent</b>: order</p><p><b>code</b>: Patient referral <span style=\"background: LightGoldenRodYellow; margin: 4px; border: 1px solid khaki\"> (<a href=\"https://browser.ihtsdotools.org/\">SNOMED CT</a>#3457005)</span></p><p><b>subject</b>: <a href=\"#Patient_HHIMSPatientExample\">See above (Patient/HHIMSPatientExample)</a></p><p><b>encounter</b>: <a href=\"#Encounter_TargetFacilityEncounterExample\">See above (Encounter/TargetFacilityEncounterExample)</a></p><p><b>occurrence</b>: 2023-10-06 13:28:17-0500</p><p><b>requester</b>: <a href=\"#Practitioner_GeneralPractitionerExample\">See above (Practitioner/GeneralPractitionerExample)</a></p><p><b>locationReference</b>: <a href=\"#Location_ProvidersLocationExample\">See above (Location/ProvidersLocationExample)</a></p></div>"
      },
      "status" : "completed",
      "intent" : "order",
      "code" : {
        "coding" : [{
          "system" : "http://snomed.info/sct",
          "code" : "3457005"
        }],
        "text" : "Patient referral"
      },
      "subject" : {
        "reference" : "Patient/HHIMSPatientExample"
      },
      "encounter" : {
        "reference" : "Encounter/TargetFacilityEncounterExample"
      },
      "occurrenceDateTime" : "2023-10-06T13:28:17-05:00",
      "requester" : {
        "reference" : "Practitioner/GeneralPractitionerExample"
      },
      "locationReference" : [{
        "reference" : "Location/ProvidersLocationExample"
      }]
    },
    "request" : {
      "method" : "PUT",
      "url" : "ServiceRequest/GeneralReferralServiceRequestExample"
    }
  },
  {
    "fullUrl" : "Task/GenericTaskExample",
    "resource" : {
      "resourceType" : "Task",
      "id" : "GenericTaskExample",
      "meta" : {
        "profile" : ["http://openhie.org/fhir/sri-lanka/StructureDefinition/generic-task"]
      },
      "text" : {
        "status" : "generated",
        "div" : "<div xmlns=\"http://www.w3.org/1999/xhtml\"><p><b>Generated Narrative: Task</b><a name=\"GenericTaskExample\"> </a></p><div style=\"display: inline-block; background-color: #d9e0e7; padding: 6px; margin: 4px; border: 1px solid #8da1b4; border-radius: 5px; line-height: 60%\"><p style=\"margin-bottom: 0px\">Resource Task &quot;GenericTaskExample&quot; </p><p style=\"margin-bottom: 0px\">Profile: <a href=\"StructureDefinition-generic-task.html\">Generic Task</a></p></div><p><b>status</b>: completed</p><p><b>intent</b>: order</p><p><b>focus</b>: <a href=\"#ServiceRequest_GeneralReferralServiceRequestExample\">See above (ServiceRequest/GeneralReferralServiceRequestExample)</a></p><p><b>for</b>: <a href=\"#Patient_HHIMSPatientExample\">See above (Patient/HHIMSPatientExample)</a></p><p><b>encounter</b>: <a href=\"#Encounter_TargetFacilityEncounterExample\">See above (Encounter/TargetFacilityEncounterExample)</a></p><p><b>authoredOn</b>: 2023-10-06 13:28:17-0500</p><p><b>requester</b>: <a href=\"#Practitioner_GeneralPractitionerExample\">See above (Practitioner/GeneralPractitionerExample)</a></p><p><b>location</b>: <a href=\"#Location_ProvidersLocationExample\">See above (Location/ProvidersLocationExample)</a></p></div>"
      },
      "status" : "completed",
      "intent" : "order",
      "focus" : {
        "reference" : "ServiceRequest/GeneralReferralServiceRequestExample"
      },
      "for" : {
        "reference" : "Patient/HHIMSPatientExample"
      },
      "encounter" : {
        "reference" : "Encounter/TargetFacilityEncounterExample"
      },
      "authoredOn" : "2023-10-06T13:28:17-05:00",
      "requester" : {
        "reference" : "Practitioner/GeneralPractitionerExample"
      },
      "location" : {
        "reference" : "Location/ProvidersLocationExample"
      }
    },
    "request" : {
      "method" : "PUT",
      "url" : "Task/GenericTaskExample"
    }
  }]
}